Psubj,Attribute,Value,cond,Unique,trials.thisRepN,trials.thisTrialN,trials.thisN,trials.thisIndex,distractor.thisRepN,distractor.thisTrialN,distractor.thisN,distractor.thisIndex,word,color,correct,rand,text.started,text_7.started,key_resp_9.started,key_resp_9.keys,key_resp_9.rt,key_resp_4.started,text_instr.started,key_resp_4.keys,key_resp_4.rt,text_3.started,text_2.started,key_resp.started,text_4.started,key_resp.keys,key_resp.rt,key_resp_2.started,text_5.started,stopb.started,stopl.started,stopr.started,text_6.started,key_resp_2.keys,key_resp_2.rt,Stroop_response.keys,Stroop_response.rt,participant,session,date,expName,psychopyVersion,frameRate,
,,,,,,,,,,,,,,,,,19.945755299995653,22.962025200016797,22.962025200016797,space,3.677119300002232,,,,,,,,,,,,,,,,,,,,,382763,001,2023-10-19_17h59.59.183,Main,2022.2.5,60.032910026297195,
,,,,,,,,,,,,,,,,,,,,,,26.661563000059687,26.661563000059687,space,0.9819120999891311,,,,,,,,,,,,,,,,,382763,001,2023-10-19_17h59.59.183,Main,2022.2.5,60.032910026297195,
1,est1,105,0.0,None,0,0,0,0,,,,,,,,,,,,,,,,,,30.93442890001461,30.93442890001461,30.93442890001461,30.93442890001461,['space'],[-0.6834274999564514],32.36002050002571,32.36002050002571,32.36002050002571,32.36002050002571,32.36002050002571,32.36002050002571,space,5.3941047000698745,None,,382763,001,2023-10-19_17h59.59.183,Main,2022.2.5,60.032910026297195,
1,est2,30,0.1,None,0,1,1,1,,,,,,,,,,,,,,,,,,37.777686299989,37.777686299989,37.777686299989,37.777686299989,['space'],[8.319979900028557],70.17024430003949,70.17024430003949,70.17024430003949,70.17024430003949,70.17024430003949,70.17024430003949,space,3.1265864999732003,None,0.23384290002286434,382763,001,2023-10-19_17h59.59.183,Main,2022.2.5,60.032910026297195,
1,est3,120,0.1,None,0,2,2,2,,,,,,,,,,,,,,,,,,73.38915170007385,73.38915170007385,73.38915170007385,73.38915170007385,['space'],[6.629674500087276],125.54804590006825,125.54804590006825,125.54804590006825,125.54804590006825,125.54804590006825,125.54804590006825,space,1.9227847999427468,None,0.35255840001627803,382763,001,2023-10-19_17h59.59.183,Main,2022.2.5,60.032910026297195,
1,est4,30,0.1,None,0,3,3,3,,,,,,,,,,,,,,,,,,127.53662250004709,127.53662250004709,127.53662250004709,127.53662250004709,['space'],[4.009335300070234],153.28101470007095,153.28101470007095,153.28101470007095,153.28101470007095,153.28101470007095,153.28101470007095,space,5.615849899942987,None,1.7997659998945892,382763,001,2023-10-19_17h59.59.183,Main,2022.2.5,60.032910026297195,
1,est5,105,0.0,None,0,4,4,4,,,,,,,,,,,,,,,,,,158.97827540000435,158.97827540000435,158.97827540000435,158.97827540000435,['space'],[4.115014299983159],163.32548920006957,163.32548920006957,163.32548920006957,163.32548920006957,163.32548920006957,163.32548920006957,space,75.87472840002738,None,,382763,001,2023-10-19_17h59.59.183,Main,2022.2.5,60.032910026297195,
1,est6,120,0.1,None,0,5,5,5,,,,,,,,,,,,,,,,,,239.22504390007816,239.22504390007816,239.22504390007816,239.22504390007816,['space'],[7.036316900048405],377.876010100008,377.876010100008,377.876010100008,377.876010100008,377.876010100008,377.876010100008,space,0.5621707000536844,None,53.09570499998517,382763,001,2023-10-19_17h59.59.183,Main,2022.2.5,60.032910026297195,
1,est7,120,0.0,None,0,6,6,6,,,,,,,,,,,,,,,,,,378.51751150004566,378.51751150004566,378.51751150004566,378.51751150004566,['space'],[1.610326400026679],380.63947040005587,380.63947040005587,380.63947040005587,380.63947040005587,380.63947040005587,380.63947040005587,space,118.89321699994616,None,,382763,001,2023-10-19_17h59.59.183,Main,2022.2.5,60.032910026297195,
1,est8,60,0.0,None,0,7,7,7,,,,,,,,,,,,,,,,,,499.59542819997296,499.59542819997296,499.59542819997296,499.59542819997296,['space'],[0.7903305999934673],500.6782880000537,500.6782880000537,500.6782880000537,500.6782880000537,500.6782880000537,500.6782880000537,space,1.1952747999457642,None,,382763,001,2023-10-19_17h59.59.183,Main,2022.2.5,60.032910026297195,
1,est9,30,0.0,None,0,8,8,8,,,,,,,,,,,,,,,,,,501.9023278000532,501.9023278000532,501.9023278000532,501.9023278000532,['space'],[0.3899009000742808],502.7147503000451,502.7147503000451,502.7147503000451,502.7147503000451,502.7147503000451,502.7147503000451,space,1.063086900045164,None,,382763,001,2023-10-19_17h59.59.183,Main,2022.2.5,60.032910026297195,
1,est10,60,0.0,None,0,9,9,9,,,,,,,,,,,,,,,,,,503.80385640007444,503.80385640007444,503.80385640007444,503.80385640007444,['space'],[0.5598819000879303],504.95350320008583,504.95350320008583,504.95350320008583,504.95350320008583,504.95350320008583,504.95350320008583,space,2.567611299920827,None,,382763,001,2023-10-19_17h59.59.183,Main,2022.2.5,60.032910026297195,
1,est11,105,0.1,None,0,10,10,10,,,,,,,,,,,,,,,,,,507.54462499998044,507.54462499998044,507.54462499998044,507.54462499998044,['space'],[0.7509456999832764],515.1292442000704,515.1292442000704,515.1292442000704,515.1292442000704,515.1292442000704,515.1292442000704,space,1.013311699964106,None,0.036667199921794236,382763,001,2023-10-19_17h59.59.183,Main,2022.2.5,60.032910026297195,
1,est12,30,0.0,None,0,11,11,11,,,,,,,,,,,,,,,,,,516.1917927999748,516.1917927999748,516.1917927999748,516.1917927999748,['space'],[0.7093419999582693],517.37124950008,517.37124950008,517.37124950008,517.37124950008,517.37124950008,517.37124950008,space,1.1333621999947354,None,,382763,001,2023-10-19_17h59.59.183,Main,2022.2.5,60.032910026297195,
1,est13,60,0.1,None,0,12,12,12,,,,,,,,,,,,,,,,,,518.5286827000091,518.5286827000091,518.5286827000091,518.5286827000091,['space'],[0.4736276000039652],552.6662562000565,552.6662562000565,552.6662562000565,552.6662562000565,552.6662562000565,552.6662562000565,space,0.6684353000018746,None,0.1526826999615878,382763,001,2023-10-19_17h59.59.183,Main,2022.2.5,60.032910026297195,
1,est14,105,0.0,None,0,13,13,13,,,,,,,,,,,,,,,,,,553.424457599991,553.424457599991,553.424457599991,553.424457599991,['space'],[1.7453251000260934],555.6793254000368,555.6793254000368,555.6793254000368,555.6793254000368,555.6793254000368,555.6793254000368,space,103.10206829989329,None,,382763,001,2023-10-19_17h59.59.183,Main,2022.2.5,60.032910026297195,
1,est15,105,0.1,None,0,14,14,14,,,,,,,,,,,,,,,,,,658.8096578000113,658.8096578000113,658.8096578000113,658.8096578000113,['space'],[1.6270303999772295],672.2232496000361,672.2232496000361,672.2232496000361,672.2232496000361,672.2232496000361,672.2232496000361,space,1.5406897000502795,None,0.8682251999853179,382763,001,2023-10-19_17h59.59.183,Main,2022.2.5,60.032910026297195,
1,est16,120,0.0,None,0,15,15,15,,,,,,,,,,,,,,,,,,673.8599590000231,673.8599590000231,673.8599590000231,673.8599590000231,['space'],[0.5092728999443352],674.6334018000634,674.6334018000634,674.6334018000634,674.6334018000634,674.6334018000634,674.6334018000634,space,23.355574999935925,None,,382763,001,2023-10-19_17h59.59.183,Main,2022.2.5,60.032910026297195,
1,est17,120,0.1,None,0,16,16,16,,,,,,,,,,,,,,,,,,704.7849367000163,704.7849367000163,704.7849367000163,704.7849367000163,['space'],[0.8297518000472337],722.9382321999874,722.9382321999874,722.9382321999874,722.9382321999874,722.9382321999874,722.9382321999874,space,0.5703819999471307,None,0.16674010001588613,382763,001,2023-10-19_17h59.59.183,Main,2022.2.5,60.032910026297195,
1,est18,105,0.0,None,0,17,17,17,,,,,,,,,,,,,,,,,,723.5950866000494,723.5950866000494,723.5950866000494,723.5950866000494,['space'],[1.6082008000230417],725.819494400057,725.819494400057,725.819494400057,725.819494400057,725.819494400057,725.819494400057,space,70.02313900005538,None,,382763,001,2023-10-19_17h59.59.183,Main,2022.2.5,60.032910026297195,
1,est19,60,0.1,None,0,18,18,18,,,,,,,,,,,,,,,,,,795.8853085000301,795.8853085000301,795.8853085000301,795.8853085000301,['space'],[0.5528299999423325],861.5934375000652,861.5934375000652,861.5934375000652,861.5934375000652,861.5934375000652,861.5934375000652,space,2.628285099985078,None,0.17606139997951686,382763,001,2023-10-19_17h59.59.183,Main,2022.2.5,60.032910026297195,
1,est20,60,0.1,None,0,19,19,19,,,,,,,,,,,,,,,,,,864.3076008000644,864.3076008000644,864.3076008000644,864.3076008000644,['space'],[2.396907399990596],869.9476697000209,869.9476697000209,869.9476697000209,869.9476697000209,869.9476697000209,869.9476697000209,space,0.21718080004211515,None,0.07366170000750571,382763,001,2023-10-19_17h59.59.183,Main,2022.2.5,60.032910026297195,
1,est21,120,0.1,None,0,20,20,20,,,,,,,,,,,,,,,,,,870.2830925000599,870.2830925000599,870.2830925000599,870.2830925000599,['space'],[19.209985699970275],889.8876124999952,889.8876124999952,889.8876124999952,889.8876124999952,889.8876124999952,889.8876124999952,space,6.935611699940637,None,,382763,001,2023-10-19_17h59.59.183,Main,2022.2.5,60.032910026297195,
1,est22,120,0.0,None,0,21,21,21,,,,,,,,,,,,,,,,,,896.921720399987,896.921720399987,896.921720399987,896.921720399987,['space'],[0.848512600059621],898.1731734999921,898.1731734999921,898.1731734999921,898.1731734999921,898.1731734999921,898.1731734999921,space,5.6244444999611005,None,,382763,001,2023-10-19_17h59.59.183,Main,2022.2.5,60.032910026297195,
1,est23,30,0.0,None,0,22,22,22,,,,,,,,,,,,,,,,,,903.8387346999953,903.8387346999953,903.8387346999953,903.8387346999953,['space'],[2.3427937999367714],906.6405015999917,906.6405015999917,906.6405015999917,906.6405015999917,906.6405015999917,906.6405015999917,space,3.3954802999505773,None,,382763,001,2023-10-19_17h59.59.183,Main,2022.2.5,60.032910026297195,
1,est24,105,0.1,None,0,23,23,23,,,,,,,,,,,,,,,,,,910.0703630000353,910.0703630000353,910.0703630000353,910.0703630000353,['space'],[1.8678214999381453],985.0913029999938,985.0913029999938,985.0913029999938,985.0913029999938,985.0913029999938,985.0913029999938,space,0.3548509000102058,None,0.07196050009224564,382763,001,2023-10-19_17h59.59.183,Main,2022.2.5,60.032910026297195,
1,est25,30,0.1,None,0,24,24,24,,,,,,,,,,,,,,,,,,985.5436236000387,985.5436236000387,985.5436236000387,985.5436236000387,['space'],[0.8737749999854714],987.0482877000468,987.0482877000468,987.0482877000468,987.0482877000468,987.0482877000468,987.0482877000468,space,1.1530868998961523,None,,382763,001,2023-10-19_17h59.59.183,Main,2022.2.5,60.032910026297195,
1,est26,60,0.0,None,0,25,25,25,,,,,,,,,,,,,,,,,,988.2655668000225,988.2655668000225,988.2655668000225,988.2655668000225,['space'],[2.4741233000531793],991.019382599974,991.019382599974,991.019382599974,991.019382599974,991.019382599974,991.019382599974,space,2.356154500041157,None,,382763,001,2023-10-19_17h59.59.183,Main,2022.2.5,60.032910026297195,
1,est27,105,0.1,None,0,26,26,26,,,,,,,,,,,,,,,,,,993.41033470002,993.41033470002,993.41033470002,993.41033470002,['space'],[1.4868450000649318],996.7452616000082,996.7452616000082,996.7452616000082,996.7452616000082,996.7452616000082,996.7452616000082,space,0.44661149999592453,None,0.050288000027649105,382763,001,2023-10-19_17h59.59.183,Main,2022.2.5,60.032910026297195,
1,est28,60,0.1,None,0,27,27,27,,,,,,,,,,,,,,,,,,997.2373851999873,997.2373851999873,997.2373851999873,997.2373851999873,['space'],[0.5138743000570685],1000.0247263000347,1000.0247263000347,1000.0247263000347,1000.0247263000347,1000.0247263000347,1000.0247263000347,space,0.5792509999591857,None,1.1079125999240205,382763,001,2023-10-19_17h59.59.183,Main,2022.2.5,60.032910026297195,
,,,,,,,,,,,,,,,,,,,,,,,,,,1000.6668845000677,1000.6668845000677,1000.6668845000677,1000.6668845000677,['space'],[1.6564077000366524],1002.7052174999844,1002.7052174999844,1002.7052174999844,1002.7052174999844,1002.7052174999844,1002.7052174999844,,,,,,,,,,,
