Psubj,Attribute,Value,cond,Unique,trials.thisRepN,trials.thisTrialN,trials.thisN,trials.thisIndex,distractor.thisRepN,distractor.thisTrialN,distractor.thisN,distractor.thisIndex,word,color,correct,rand,textbox.started,key_resp_9.started,textbox_2.started,polygon.started,key_resp_9.keys,key_resp_4.started,textbox_3.started,textbox_3.stopped,key_resp_4.keys,key_resp_4.rt,key_resp.started,text_4.started,text_2.started,text_3.started,key_resp.keys,key_resp.rt,key_resp_2.started,text_6.started,text_5.started,stopb.started,stopl.started,stopr.started,key_resp_2.keys,key_resp_2.rt,Stroop_response.keys,Stroop_response.rt,participant,session,date,expName,psychopyVersion,frameRate,
,,,,,,,,,,,,,,,,,15.129957299912348,20.14071820001118,20.14071820001118,20.14071820001118,None,,,,,,,,,,,,,,,,,,,,,,712021,001,2023-10-25_15h53.53.438,Main,2022.2.5,59.906856848985115,
,,,,,,,,,,,,,,,,,,,,,,200.13607180002145,200.13607180002145,220.14641389995813,space,37.33874709997326,,,,,,,,,,,,,,,,,712021,001,2023-10-25_15h53.53.438,Main,2022.2.5,59.906856848985115,
1,est1,105,0.0,None,0,0,0,0,,,,,,,,,,,,,,,,,,,240.504017499974,240.504017499974,240.504017499974,240.504017499974,['space'],[15.472791699925438],257.14408739993814,257.14408739993814,257.14408739993814,257.14408739993814,257.14408739993814,257.14408739993814,space,105.99950410006568,None,,712021,001,2023-10-25_15h53.53.438,Main,2022.2.5,59.906856848985115,
1,est2,30,0.1,None,0,1,1,1,,,,,,,,,,,,,,,,,,,363.1788918999955,363.1788918999955,363.1788918999955,363.1788918999955,['space'],[5.958715399960056],411.3042659999337,411.3042659999337,411.3042659999337,411.3042659999337,411.3042659999337,411.3042659999337,space,0.4243663999950513,None,0.0017811000579968095,712021,001,2023-10-25_15h53.53.438,Main,2022.2.5,59.906856848985115,
1,est3,120,0.1,None,0,2,2,2,,,,,,,,,,,,,,,,,,,411.79710179998074,411.79710179998074,411.79710179998074,411.79710179998074,['space'],[6.073792899958789],540.1823175000027,540.1823175000027,540.1823175000027,540.1823175000027,540.1823175000027,540.1823175000027,space,2.376866800012067,None,9.89299610001035,712021,001,2023-10-25_15h53.53.438,Main,2022.2.5,59.906856848985115,
1,est4,30,0.1,None,0,3,3,3,,,,,,,,,,,,,,,,,,,542.5941652000183,542.5941652000183,542.5941652000183,542.5941652000183,['space'],[7.376641499926336],603.2450819999212,603.2450819999212,603.2450819999212,603.2450819999212,603.2450819999212,603.2450819999212,space,0.3063187999650836,None,0.5072417999617755,712021,001,2023-10-25_15h53.53.438,Main,2022.2.5,59.906856848985115,
1,est5,105,0.0,None,0,4,4,4,,,,,,,,,,,,,,,,,,,603.5803040999454,603.5803040999454,603.5803040999454,603.5803040999454,['space'],[1.431123400107026],605.3719754000194,605.3719754000194,605.3719754000194,605.3719754000194,605.3719754000194,605.3719754000194,space,143.31305090000387,None,,712021,001,2023-10-25_15h53.53.438,Main,2022.2.5,59.906856848985115,
1,est6,120,0.1,None,0,5,5,5,,,,,,,,,,,,,,,,,,,748.7171857999638,748.7171857999638,748.7171857999638,748.7171857999638,['space'],[20.078244699980132],835.7246660999954,835.7246660999954,835.7246660999954,835.7246660999954,835.7246660999954,835.7246660999954,space,9.434572599944659,None,0.22250200004782528,712021,001,2023-10-25_15h53.53.438,Main,2022.2.5,59.906856848985115,
1,est7,120,0.0,None,0,6,6,6,,,,,,,,,,,,,,,,,,,845.2106911999872,845.2106911999872,845.2106911999872,845.2106911999872,['space'],[1.0779562999960035],846.6463669999503,846.6463669999503,846.6463669999503,846.6463669999503,846.6463669999503,846.6463669999503,space,165.34598370001186,None,,712021,001,2023-10-25_15h53.53.438,Main,2022.2.5,59.906856848985115,
1,est8,60,0.0,None,0,7,7,7,,,,,,,,,,,,,,,,,,,1012.029502099962,1012.029502099962,1012.029502099962,1012.029502099962,['space'],[4.440456200041808],1016.7930954999756,1016.7930954999756,1016.7930954999756,1016.7930954999756,1016.7930954999756,1016.7930954999756,space,74.6475497999927,None,,712021,001,2023-10-25_15h53.53.438,Main,2022.2.5,59.906856848985115,
1,est9,30,0.0,None,0,8,8,8,,,,,,,,,,,,,,,,,,,1091.4620248000138,1091.4620248000138,1091.4620248000138,1091.4620248000138,['space'],[3.1188511999789625],1130.3664107000222,1130.3664107000222,1130.3664107000222,1130.3664107000222,1130.3664107000222,1130.3664107000222,space,35.07309239997994,None,35.44486270006746,712021,001,2023-10-25_15h53.53.438,Main,2022.2.5,59.906856848985115,
1,est10,60,0.0,None,0,9,9,9,,,,,,,,,,,,,,,,,,,1165.4721487999195,1165.4721487999195,1165.4721487999195,1165.4721487999195,['space'],[4.021047299960628],1231.2705370999174,1231.2705370999174,1231.2705370999174,1231.2705370999174,1231.2705370999174,1231.2705370999174,space,2.381387299974449,None,61.41448409995064,712021,001,2023-10-25_15h53.53.438,Main,2022.2.5,59.906856848985115,
1,est11,105,0.1,None,0,10,10,10,,,,,,,,,,,,,,,,,,,1233.6690185000189,1233.6690185000189,1233.6690185000189,1233.6690185000189,['space'],[6.7637553999666125],1325.8064893999835,1325.8064893999835,1325.8064893999835,1325.8064893999835,1325.8064893999835,1325.8064893999835,space,0.3097708000568673,None,0.03372840001247823,712021,001,2023-10-25_15h53.53.438,Main,2022.2.5,59.906856848985115,
1,est12,30,0.0,None,0,11,11,11,,,,,,,,,,,,,,,,,,,1326.167183100013,1326.167183100013,1326.167183100013,1326.167183100013,['space'],[2.186745399958454],1328.6388061000034,1328.6388061000034,1328.6388061000034,1328.6388061000034,1328.6388061000034,1328.6388061000034,space,41.08272910001688,None,,712021,001,2023-10-25_15h53.53.438,Main,2022.2.5,59.906856848985115,
1,est13,60,0.1,None,0,12,12,12,,,,,,,,,,,,,,,,,,,1369.7440211999929,1369.7440211999929,1369.7440211999929,1369.7440211999929,['space'],[2.7518052000086755],1450.2353360999841,1450.2353360999841,1450.2353360999841,1450.2353360999841,1450.2353360999841,1450.2353360999841,space,1.6178684999467805,None,0.7540126000531018,712021,001,2023-10-25_15h53.53.438,Main,2022.2.5,59.906856848985115,
1,est14,105,0.0,None,0,13,13,13,,,,,,,,,,,,,,,,,,,1451.8849148999434,1451.8849148999434,1451.8849148999434,1451.8849148999434,['space'],[3.715841800090857],1455.8402801000047,1455.8402801000047,1455.8402801000047,1455.8402801000047,1455.8402801000047,1455.8402801000047,space,161.0637851000065,None,,712021,001,2023-10-25_15h53.53.438,Main,2022.2.5,59.906856848985115,
1,est15,105,0.1,None,0,14,14,14,,,,,,,,,,,,,,,,,,,1616.9342325999169,1616.9342325999169,1616.9342325999169,1616.9342325999169,['space'],[3.2387855000561103],1714.2373927999288,1714.2373927999288,1714.2373927999288,1714.2373927999288,1714.2373927999288,1714.2373927999288,space,3.330834300024435,None,0.4283377000829205,712021,001,2023-10-25_15h53.53.438,Main,2022.2.5,59.906856848985115,
1,est16,120,0.0,None,0,15,15,15,,,,,,,,,,,,,,,,,,,1717.6569924999494,1717.6569924999494,1717.6569924999494,1717.6569924999494,['space'],[6.2068310000468045],1724.0967278999742,1724.0967278999742,1724.0967278999742,1724.0967278999742,1724.0967278999742,1724.0967278999742,space,137.29460530006327,None,,712021,001,2023-10-25_15h53.53.438,Main,2022.2.5,59.906856848985115,
1,est17,120,0.1,None,0,16,16,16,,,,,,,,,,,,,,,,,,,1861.40924790001,1861.40924790001,1861.40924790001,1861.40924790001,['space'],[3.261897600023076],2006.3471417999826,2006.3471417999826,2006.3471417999826,2006.3471417999826,2006.3471417999826,2006.3471417999826,space,1.490784200024791,None,0.2676004000240937,712021,001,2023-10-25_15h53.53.438,Main,2022.2.5,59.906856848985115,
1,est18,105,0.0,None,0,17,17,17,,,,,,,,,,,,,,,,,,,2007.929769499926,2007.929769499926,2007.929769499926,2007.929769499926,['space'],[7.767370100016706],2015.9271181999939,2015.9271181999939,2015.9271181999939,2015.9271181999939,2015.9271181999939,2015.9271181999939,space,125.77902150002774,None,,712021,001,2023-10-25_15h53.53.438,Main,2022.2.5,59.906856848985115,
1,est19,60,0.1,None,0,18,18,18,,,,,,,,,,,,,,,,,,,2141.722871499951,2141.722871499951,2141.722871499951,2141.722871499951,['space'],[4.796821299940348],2231.096463099937,2231.096463099937,2231.096463099937,2231.096463099937,2231.096463099937,2231.096463099937,space,1.2558252998860553,None,0.2734532000031322,712021,001,2023-10-25_15h53.53.438,Main,2022.2.5,59.906856848985115,
1,est20,60,0.1,None,0,19,19,19,,,,,,,,,,,,,,,,,,,2232.3814175999723,2232.3814175999723,2232.3814175999723,2232.3814175999723,['space'],[7.378653199994005],2325.283988500014,2325.283988500014,2325.283988500014,2325.283988500014,2325.283988500014,2325.283988500014,space,0.34154839999973774,None,0.07731680001597852,712021,001,2023-10-25_15h53.53.438,Main,2022.2.5,59.906856848985115,
1,est21,120,0.1,None,0,20,20,20,,,,,,,,,,,,,,,,,,,2325.6646630999167,2325.6646630999167,2325.6646630999167,2325.6646630999167,['space'],[6.82218230003491],2464.192223299993,2464.192223299993,2464.192223299993,2464.192223299993,2464.192223299993,2464.192223299993,space,1.2621405000099912,None,0.12419449992012233,712021,001,2023-10-25_15h53.53.438,Main,2022.2.5,59.906856848985115,
1,est22,120,0.0,None,0,21,21,21,,,,,,,,,,,,,,,,,,,2465.532312999945,2465.532312999945,2465.532312999945,2465.532312999945,['space'],[3.8592617000686005],2469.6133152999682,2469.6133152999682,2469.6133152999682,2469.6133152999682,2469.6133152999682,2469.6133152999682,space,147.4027978000231,None,,712021,001,2023-10-25_15h53.53.438,Main,2022.2.5,59.906856848985115,
1,est23,30,0.0,None,0,22,22,22,,,,,,,,,,,,,,,,,,,2617.0448649999453,2617.0448649999453,2617.0448649999453,2617.0448649999453,['space'],[4.890805599978194],2622.1486899999436,2622.1486899999436,2622.1486899999436,2622.1486899999436,2622.1486899999436,2622.1486899999436,space,71.15271689998917,None,,712021,001,2023-10-25_15h53.53.438,Main,2022.2.5,59.906856848985115,
1,est24,105,0.1,None,0,23,23,23,,,,,,,,,,,,,,,,,,,2693.320085400017,2693.320085400017,2693.320085400017,2693.320085400017,['space'],[5.557242599898018],2804.6558212999953,2804.6558212999953,2804.6558212999953,2804.6558212999953,2804.6558212999953,2804.6558212999953,space,0.3711917999899015,None,0.14235759992152452,712021,001,2023-10-25_15h53.53.438,Main,2022.2.5,59.906856848985115,
1,est25,30,0.1,None,0,24,24,24,,,,,,,,,,,,,,,,,,,2805.0698894999223,2805.0698894999223,2805.0698894999223,2805.0698894999223,['space'],[6.116813700064085],2856.8890848999145,2856.8890848999145,2856.8890848999145,2856.8890848999145,2856.8890848999145,2856.8890848999145,space,0.4609183999709785,None,0.31389600003603846,712021,001,2023-10-25_15h53.53.438,Main,2022.2.5,59.906856848985115,
1,est26,60,0.0,None,0,25,25,25,,,,,,,,,,,,,,,,,,,2857.437554199947,2857.437554199947,2857.437554199947,2857.437554199947,['space'],[1.6370043000206351],2859.219310299959,2859.219310299959,2859.219310299959,2859.219310299959,2859.219310299959,2859.219310299959,space,67.69273619994055,None,,712021,001,2023-10-25_15h53.53.438,Main,2022.2.5,59.906856848985115,
1,est27,105,0.1,None,0,26,26,26,,,,,,,,,,,,,,,,,,,2926.9311350999633,2926.9311350999633,2926.9311350999633,2926.9311350999633,['space'],[3.813374500023201],3037.2477383000078,3037.2477383000078,3037.2477383000078,3037.2477383000078,3037.2477383000078,3037.2477383000078,space,0.7636388000100851,None,0.23730649997014552,712021,001,2023-10-25_15h53.53.438,Main,2022.2.5,59.906856848985115,
1,est28,60,0.1,None,0,27,27,27,,,,,,,,,,,,,,,,,,,3038.0322432999965,3038.0322432999965,3038.0322432999965,3038.0322432999965,['space'],[1.2950326999416575],3113.8752124999883,3113.8752124999883,3113.8752124999883,3113.8752124999883,3113.8752124999883,3113.8752124999883,space,0.7767124000238255,None,0.05658849992323667,712021,001,2023-10-25_15h53.53.438,Main,2022.2.5,59.906856848985115,
1,est29,120,0.0,None,0,28,28,28,,,,,,,,,,,,,,,,,,,3114.7290046999697,3114.7290046999697,3114.7290046999697,3114.7290046999697,['space'],[0.022627800004556775],3115.026215699967,3115.026215699967,3115.026215699967,3115.026215699967,3115.026215699967,3115.026215699967,space,159.26405190001242,None,,712021,001,2023-10-25_15h53.53.438,Main,2022.2.5,59.906856848985115,
1,est30,30,0.0,None,0,29,29,29,,,,,,,,,,,,,,,,,,,3274.3077026000246,3274.3077026000246,3274.3077026000246,3274.3077026000246,['space'],[2.805639199912548],3277.2729971000226,3277.2729971000226,3277.2729971000226,3277.2729971000226,3277.2729971000226,3277.2729971000226,space,56.97073449997697,None,,712021,001,2023-10-25_15h53.53.438,Main,2022.2.5,59.906856848985115,
1,est31,60,0.0,None,0,30,30,30,,,,,,,,,,,,,,,,,,,3334.272423599963,3334.272423599963,3334.272423599963,3334.272423599963,['space'],[0.9005705000599846],3335.4109416999854,3335.4109416999854,3335.4109416999854,3335.4109416999854,3335.4109416999854,3335.4109416999854,space,84.38667500007432,None,,712021,001,2023-10-25_15h53.53.438,Main,2022.2.5,59.906856848985115,
1,est32,30,0.1,None,0,31,31,31,,,,,,,,,,,,,,,,,,,3419.8297055999283,3419.8297055999283,3419.8297055999283,3419.8297055999283,['space'],[0.5951213000807911],3460.0022180000087,3460.0022180000087,3460.0022180000087,3460.0022180000087,3460.0022180000087,3460.0022180000087,space,1.433303099940531,None,0.04268929990939796,712021,001,2023-10-25_15h53.53.438,Main,2022.2.5,59.906856848985115,
1,est1,105,0.0,None,1,0,32,0,,,,,,,,,,,,,,,,,,,3461.5342337000184,3461.5342337000184,3461.5342337000184,3461.5342337000184,['space'],[12.098454700084403],3473.7798592000036,3473.7798592000036,3473.7798592000036,3473.7798592000036,3473.7798592000036,3473.7798592000036,space,160.86417289997917,None,,712021,001,2023-10-25_15h53.53.438,Main,2022.2.5,59.906856848985115,
1,est2,30,0.1,None,1,1,33,1,,,,,,,,,,,,,,,,,,,3634.6634687000187,3634.6634687000187,3634.6634687000187,3634.6634687000187,['space'],[0.7026498999912292],3683.4154025999596,3683.4154025999596,3683.4154025999596,3683.4154025999596,3683.4154025999596,3683.4154025999596,space,0.47975589998532087,None,0.08782749995589256,712021,001,2023-10-25_15h53.53.438,Main,2022.2.5,59.906856848985115,
1,est3,120,0.1,None,1,2,34,2,,,,,,,,,,,,,,,,,,,3683.9350360999815,3683.9350360999815,3683.9350360999815,3683.9350360999815,['space'],[0.8055630000308156],3847.8665172000183,3847.8665172000183,3847.8665172000183,3847.8665172000183,3847.8665172000183,3847.8665172000183,space,1.3487672000192106,None,0.029017900000326335,712021,001,2023-10-25_15h53.53.438,Main,2022.2.5,59.906856848985115,
1,est4,30,0.1,None,1,3,35,3,,,,,,,,,,,,,,,,,,,3849.2676679999568,3849.2676679999568,3849.2676679999568,3849.2676679999568,['space'],[1.260521800024435],3939.454163599992,3939.454163599992,3939.454163599992,3939.454163599992,3939.454163599992,3939.454163599992,space,0.35466559999622405,None,0.13172389997635037,712021,001,2023-10-25_15h53.53.438,Main,2022.2.5,59.906856848985115,
1,est5,105,0.0,None,1,4,36,4,,,,,,,,,,,,,,,,,,,3939.8489133999683,3939.8489133999683,3939.8489133999683,3939.8489133999683,['space'],[0.26448350003920496],3940.254032399971,3940.254032399971,3940.254032399971,3940.254032399971,3940.254032399971,3940.254032399971,space,150.17035920009948,None,,712021,001,2023-10-25_15h53.53.438,Main,2022.2.5,59.906856848985115,
,,,,,,,,,,,,,,,,,,,,,,,,,,,4090.4418443000177,4090.4418443000177,4090.4418443000177,4090.4418443000177,['space'],[1.8979476999957114],4092.5993745999876,4092.5993745999876,4092.5993745999876,4092.5993745999876,4092.5993745999876,4092.5993745999876,,,,,,,,,,,
